Data from Absorbance__5__13-39-16-971.txt Node

Date: Sat Aug 24 13:39:16 CDT 2024
User: jcb200005
Spectrometer: USB4H00496
Trigger mode: 4
Integration Time (sec): 5.700000E-2
Scans to average: 25
Electric dark correction enabled: true
Nonlinearity correction enabled: false
Boxcar width: 0
XAxis mode: Wavelengths
Number of Pixels in Spectrum: 3648
>>>>>Begin Spectral Data<<<<<
177.67838	-0.05315
177.89545	-0.05315
178.1125	-0.05315
178.32955	0.22124
178.54659	-0.20496
178.76362	-0
178.98064	0.47356
179.19766	0.53633
179.41466	-0.16192
179.63165	0.10813
179.84864	-0
180.06561	0.13877
180.28258	-0.36527
180.49954	-1.35614
180.71649	-0.29817
180.93343	-0.46852
181.15036	-0
181.36728	-0.29244
181.5842	-0
181.8011	0.37659
182.01799	-0
182.23488	0.56072
182.45176	0.42468
182.66862	0.40993
182.88548	0.67625
183.10233	1.07943
183.31917	1.52537
183.53601	0.73624
183.75283	-0
183.96964	-0
184.18645	-0
184.40324	-0
184.62003	0.83267
184.83681	-0
185.05357	-0
185.27033	0.49163
185.48708	-0
185.70382	0.66967
185.92056	-0
186.13728	1.34282
186.35399	0.7726
186.5707	0.30998
186.78739	1.00496
187.00408	0.94399
187.22076	0.38154
187.43742	-0
187.65408	-0
187.87073	0.40263
188.08737	0.98719
188.30401	1.0739
188.52063	0.42203
188.73724	0.84838
188.95385	0.63481
189.17044	0.40982
189.38703	1.06095
189.6036	-0
189.82017	-0
190.03673	0.65807
190.25328	0.7353
190.46982	0.5502
190.68635	0.57462
190.90287	1.83955
191.11939	-0
191.33589	0.66633
191.55239	1.42673
191.76887	-0
191.98535	1.6271
192.20182	0.92519
192.41827	0.98726
192.63472	0.5814
192.85116	0.9407
193.06759	0.96905
193.28401	1.31924
193.50043	1.10122
193.71683	1.02086
193.93322	1.15398
194.14961	1.00135
194.36598	1.68549
194.58235	0.92527
194.79871	1.63282
195.01506	1.6088
195.23139	1.89507
195.44772	0.78375
195.66404	1.50334
195.88036	0.86787
196.09666	1.27992
196.31295	1.91085
196.52923	-0
196.74551	0.97836
196.96177	1.29271
197.17803	1.28579
197.39428	1.06463
197.61051	1.19954
197.82674	1.41201
198.04296	0.96701
198.25917	0.92049
198.47537	0.98718
198.69156	1.35913
198.90775	-0
199.12392	1.17157
199.34008	1.19067
199.55624	1.66354
199.77238	-0
199.98852	0.97692
200.20465	1.35424
200.42076	2.24681
200.63687	1.51406
200.85297	1.40534
201.06906	1.11498
201.28514	1.0089
201.50121	-0
201.71727	1.36634
201.93333	2.73053
202.14937	2.28088
202.3654	-0
202.58143	1.02883
202.79744	-0
203.01345	1.34653
203.22945	-0
203.44544	-0
203.66141	-0
203.87738	2.21612
204.09334	1.24689
204.30929	1.62733
204.52523	1.09017
204.74117	1.55069
204.95709	1.22103
205.173	1.87588
205.38891	1.74442
205.6048	1.56116
205.82069	1.6662
206.03656	2.09454
206.25243	2.29835
206.46829	2.26879
206.68413	1.48806
206.89997	1.62258
207.1158	1.42508
207.33162	1.51567
207.54743	-0
207.76324	2.04482
207.97903	-0
208.19481	1.46985
208.41058	2.14165
208.62635	-0
208.8421	2.41392
209.05785	2.46172
209.27358	-0
209.48931	1.55334
209.70503	1.68942
209.92074	1.80884
210.13643	2.70685
210.35212	1.73907
210.5678	1.71272
210.78347	1.51586
210.99914	1.56696
211.21479	1.57408
211.43043	1.94407
211.64606	-0
211.86169	1.72753
212.0773	1.53998
212.29291	2.79679
212.5085	1.71949
212.72409	1.74004
212.93966	1.68805
213.15523	1.71718
213.37079	2.0678
213.58634	-0
213.80188	1.86938
214.01741	1.70792
214.23293	1.57964
214.44844	2.32655
214.66394	1.88572
214.87943	1.80295
215.09491	1.78417
215.31039	1.64621
215.52585	-0
215.7413	2.52453
215.95675	-0
216.17218	2.07509
216.38761	-0
216.60303	2.15797
216.81843	1.64638
217.03383	1.92054
217.24922	2.40676
217.4646	2.54872
217.67997	1.90977
217.89533	2.12748
218.11068	1.76644
218.32602	1.63399
218.54135	2.2345
218.75667	2.11764
218.97198	2.07267
219.18729	2.22508
219.40258	1.71205
219.61787	2.0757
219.83314	2.26047
220.04841	2.11678
220.26366	2.12374
220.47891	1.95549
220.69414	-0
220.90937	2.9907
221.12459	1.93285
221.3398	2.2204
221.555	2.62786
221.77019	1.89596
221.98536	-0
222.20054	-0
222.4157	-0
222.63085	2.30751
222.84599	2.11271
223.06112	3.67874
223.27624	-0
223.49136	2.08302
223.70646	2.03841
223.92155	3.70794
224.13664	-0
224.35171	2.3427
224.56678	2.09351
224.78184	2.40499
224.99688	2.81527
225.21192	2.15624
225.42695	1.98359
225.64196	2.90144
225.85697	2.28542
226.07197	2.20439
226.28696	-0
226.50194	2.12273
226.71691	2.29541
226.93187	2.53784
227.14682	2.22267
227.36176	2.73162
227.5767	-0
227.79162	2.64936
228.00653	2.81152
228.22143	2.34286
228.43633	2.19643
228.65121	2.39469
228.86609	-0
229.08095	2.45331
229.29581	2.14285
229.51065	3.21674
229.72549	2.78961
229.94031	2.26849
230.15513	2.26398
230.36994	2.45299
230.58474	3.04061
230.79952	2.94058
231.0143	2.6517
231.22907	-0
231.44383	2.66618
231.65858	2.41441
231.87332	2.60793
232.08805	2.41569
232.30277	2.26832
232.51748	2.12047
232.73218	2.35131
232.94688	3.64919
233.16156	-0
233.37623	-0
233.59089	-0
233.80555	3.08437
234.02019	2.73433
234.23483	2.56435
234.44945	2.88692
234.66406	2.54953
234.87867	2.80649
235.09327	4.67376
235.30785	-0
235.52243	2.21517
235.73699	2.33658
235.95155	2.69104
236.1661	2.70588
236.38064	2.25831
236.59516	2.24368
236.80968	2.22831
237.02419	2.39194
237.23869	2.5704
237.45318	2.88478
237.66766	2.25892
237.88213	3.31348
238.09659	2.30961
238.31104	2.62149
238.52548	2.50021
238.73991	2.92695
238.95433	2.42215
239.16874	-0
239.38314	3.69976
239.59754	-0
239.81192	-0
240.02629	2.62275
240.24066	2.74673
240.45501	2.35769
240.66935	2.63383
240.88369	2.36688
241.09801	2.50082
241.31232	-0
241.52663	2.51579
241.74092	-0
241.95521	-0
242.16949	2.40329
242.38375	-0
242.59801	2.44408
242.81225	2.64785
243.02649	-0
243.24072	3.14552
243.45493	2.31613
243.66914	2.92799
243.88334	2.91696
244.09753	3.18397
244.31171	2.6756
244.52587	3.15101
244.74003	2.91635
244.95418	2.63385
245.16832	2.52752
245.38245	2.96358
245.59657	3.20434
245.81068	-0
246.02478	2.76624
246.23887	2.65328
246.45295	-0
246.66702	2.77862
246.88108	3.33593
247.09513	2.66329
247.30917	2.62228
247.5232	2.7046
247.73722	2.69686
247.95124	3.03008
248.16524	2.61643
248.37923	2.58453
248.59321	-0
248.80719	2.5427
249.02115	2.6932
249.2351	2.76584
249.44904	3.05479
249.66298	2.56833
249.8769	2.36268
250.09081	2.99956
250.30472	2.97578
250.51861	2.67406
250.7325	-0
250.94637	2.81477
251.16024	3.34411
251.37409	2.80108
251.58793	2.90439
251.80177	4.0748
252.01559	2.74935
252.22941	2.66802
252.44322	2.91376
252.65701	-0
252.8708	-0
253.08457	3.03987
253.29834	-0
253.51209	2.72706
253.72584	2.9002
253.93958	3.12799
254.1533	3.64331
254.36702	-0
254.58073	2.80359
254.79442	3.46623
255.00811	2.92277
255.22179	2.80097
255.43545	2.98311
255.64911	2.78922
255.86276	2.51575
256.0764	2.86633
256.29002	-0
256.50364	3.30573
256.71725	2.93481
256.93085	2.55714
257.14443	3.02424
257.35801	3.42066
257.57158	2.65373
257.78514	2.56206
257.99869	2.86728
258.21223	3.48153
258.42575	3.1441
258.63927	2.63562
258.85278	2.71692
259.06628	3.07374
259.27977	-0
259.49325	2.7058
259.70672	3.00408
259.92017	2.72307
260.13362	3.25035
260.34706	2.66746
260.56049	2.72141
260.77391	2.78694
260.98732	3.73112
261.20072	2.95827
261.41411	2.60727
261.62749	3.47232
261.84086	3.63621
262.05422	2.74594
262.26757	3.07301
262.4809	2.81001
262.69423	2.73357
262.90755	3.02325
263.12086	2.52675
263.33416	3.11567
263.54745	-0
263.76073	3.58717
263.974	2.89972
264.18726	3.4725
264.40051	-0
264.61375	3.37243
264.82698	2.7813
265.0402	4.35214
265.25341	2.72368
265.46661	2.74012
265.6798	2.95489
265.89298	2.61092
266.10615	-0
266.31931	2.80006
266.53245	3.81698
266.74559	2.93226
266.95872	2.92115
267.17184	-0
267.38495	2.79753
267.59805	2.66655
267.81114	2.82509
268.02422	2.93109
268.23729	2.52874
268.45035	3.18763
268.6634	2.96416
268.87644	2.78056
269.08947	2.88313
269.30248	2.80734
269.51549	-0
269.72849	2.74046
269.94148	3.25637
270.15446	-0
270.36743	3.03252
270.58039	3.45621
270.79334	3.06303
271.00627	2.72272
271.2192	2.78945
271.43212	2.719
271.64503	2.88516
271.85793	3.36348
272.07081	-0
272.28369	-0
272.49656	3.41172
272.70942	3.94233
272.92227	2.64426
273.1351	3.23025
273.34793	3.067
273.56075	2.67852
273.77356	2.70123
273.98635	2.42399
274.19914	3.59319
274.41192	3.08483
274.62468	-0
274.83744	3.5739
275.05019	3.87635
275.26292	2.96599
275.47565	3.01589
275.68837	2.64878
275.90107	3.36549
276.11377	3.33343
276.32645	3.00642
276.53913	-0
276.7518	3.0139
276.96445	-0
277.1771	2.85382
277.38973	-0
277.60236	3.22631
277.81497	3.3525
278.02758	2.96184
278.24017	3.25122
278.45276	-0
278.66533	3.07568
278.87789	2.70887
279.09045	2.93709
279.30299	3.0148
279.51552	2.76629
279.72805	2.84042
279.94056	-0
280.15306	2.9483
280.36556	2.8058
280.57804	3.74188
280.79051	4.08156
281.00297	3.22977
281.21543	3.14973
281.42787	-0
281.6403	-0
281.85272	2.93176
282.06513	2.69517
282.27753	2.82945
282.48992	2.62845
282.70231	2.77161
282.91468	2.77519
283.12704	2.68216
283.33939	3.50763
283.55173	-0
283.76406	2.84552
283.97638	2.66699
284.18868	-0
284.40098	2.615
284.61327	2.54269
284.82555	2.61885
285.03782	3.68524
285.25008	3.21212
285.46232	2.68405
285.67456	3.3402
285.88679	-0
286.09901	4.33866
286.31121	3.07502
286.52341	2.69393
286.7356	2.4763
286.94777	2.7264
287.15994	-0
287.37209	3.4888
287.58424	3.81286
287.79637	3.85553
288.0085	3.08289
288.22061	2.86387
288.43272	3.20302
288.64481	3.11664
288.85689	3.68879
289.06897	2.92995
289.28103	-0
289.49308	3.14234
289.70512	4.05812
289.91716	2.80711
290.12918	3.85683
290.34119	3.14419
290.55319	-0
290.76518	3.35479
290.97716	2.71537
291.18913	3.6601
291.40109	3.03378
291.61304	2.58741
291.82498	3.01999
292.03691	2.81118
292.24883	2.80658
292.46074	2.64015
292.67264	-0
292.88452	2.67397
293.0964	2.86074
293.30827	-0
293.52013	-0
293.73197	2.70568
293.94381	3.46742
294.15563	3.39553
294.36745	3.03383
294.57925	2.74861
294.79105	2.85682
295.00283	3.16048
295.21461	3.56087
295.42637	-0
295.63812	3.05102
295.84987	3.53939
296.0616	2.9687
296.27332	-0
296.48503	3.60928
296.69673	3.76346
296.90843	3.01608
297.12011	3.17893
297.33178	3.37342
297.54344	3.25639
297.75509	2.94387
297.96672	2.66992
298.17835	-0
298.38997	2.8818
298.60158	-0
298.81318	-0
299.02476	2.94621
299.23634	2.98862
299.44791	3.7162
299.65946	3.7171
299.87101	2.56379
300.08254	-0
300.29407	3.47457
300.50558	-0
300.71709	3.67019
300.92858	2.61595
301.14006	3.07768
301.35154	2.76616
301.563	2.98549
301.77445	2.88018
301.98589	3.17913
302.19732	3.03051
302.40874	-0
302.62015	2.55356
302.83155	-0
303.04294	2.76364
303.25432	-0
303.46569	3.59536
303.67704	2.85106
303.88839	2.81689
304.09973	2.95694
304.31106	3.05007
304.52237	-0
304.73368	2.70814
304.94497	3.09366
305.15626	-0
305.36753	5.93688
305.57879	3.40159
305.79005	2.75297
306.00129	2.7915
306.21252	3.83058
306.42374	2.90171
306.63495	2.81975
306.84615	2.7541
307.05734	2.90608
307.26852	3.90037
307.47969	3.22468
307.69085	2.79632
307.902	3.0386
308.11314	2.98178
308.32426	3.27198
308.53538	2.76942
308.74649	2.96581
308.95758	2.77947
309.16867	-0
309.37974	3.69731
309.59081	3.28033
309.80186	2.99674
310.0129	2.75833
310.22393	4.24965
310.43496	3.23105
310.64597	3.03787
310.85697	4.15152
311.06796	2.91957
311.27894	3.0733
311.48991	4.36817
311.70086	2.8356
311.91181	2.91309
312.12275	3.02389
312.33368	2.46176
312.54459	3.51826
312.7555	2.69089
312.96639	4.19804
313.17728	3.28297
313.38815	2.84769
313.59902	4.0399
313.80987	2.97902
314.02071	2.75535
314.23154	3.77577
314.44236	2.58917
314.65318	3.31429
314.86398	-0
315.07476	2.73834
315.28554	2.86168
315.49631	2.81198
315.70707	3.07244
315.91782	-0
316.12855	3.20056
316.33928	-0
316.54999	3.32452
316.7607	3.06719
316.97139	2.88535
317.18208	2.83364
317.39275	2.56077
317.60341	2.67838
317.81406	3.42369
318.0247	2.7721
318.23533	3.65158
318.44595	2.86672
318.65656	2.85462
318.86716	2.92792
319.07775	2.97029
319.28833	2.95999
319.49889	2.97949
319.70945	4.43218
319.91999	3.1643
320.13053	2.38489
320.34105	3.19673
320.55156	3.9845
320.76207	3.56395
320.97256	3.49962
321.18304	4.62651
321.39351	3.14221
321.60397	2.76939
321.81442	2.95877
322.02486	2.7987
322.23529	2.75427
322.4457	2.63916
322.65611	3.23842
322.86651	2.64512
323.07689	3.12517
323.28726	3.01832
323.49763	2.62246
323.70798	3.92926
323.91832	2.88281
324.12866	2.89208
324.33898	-0
324.54929	-0
324.75959	3.37235
324.96988	2.87566
325.18015	-0
325.39042	2.66093
325.60068	3.1332
325.81092	2.62504
326.02116	2.83931
326.23138	2.7639
326.4416	3.12881
326.6518	3.02775
326.86199	-0
327.07217	2.60142
327.28235	2.92151
327.49251	3.42465
327.70265	2.80679
327.91279	3.47503
328.12292	2.82189
328.33304	2.46738
328.54315	3.07915
328.75324	2.87723
328.96333	3.033
329.1734	2.70771
329.38346	3.44613
329.59352	3.25323
329.80356	2.67489
330.01359	3.21561
330.22361	3.07342
330.43362	2.97903
330.64362	3.08632
330.85361	-0
331.06358	3.31552
331.27355	-0
331.48351	-0
331.69345	2.8776
331.90338	2.92106
332.11331	2.52384
332.32322	2.79673
332.53312	3.28538
332.74301	3.16068
332.95289	2.66572
333.16276	2.6521
333.37262	2.78096
333.58247	2.69049
333.79231	-0
334.00213	3.31886
334.21195	3.0055
334.42175	2.92237
334.63155	3.72292
334.84133	2.84828
335.0511	2.87528
335.26086	2.49199
335.47061	2.86523
335.68035	3.11307
335.89008	2.59345
336.0998	-0
336.3095	2.96099
336.5192	2.77735
336.72889	2.82802
336.93856	2.77394
337.14822	3.04437
337.35788	2.69917
337.56752	2.4211
337.77715	2.73779
337.98677	2.65115
338.19638	2.86663
338.40598	3.71991
338.61556	4.06615
338.82514	2.78447
339.03471	-0
339.24426	3.20299
339.45381	3.27744
339.66334	2.74979
339.87286	2.4173
340.08237	2.69363
340.29187	2.84835
340.50136	3.05262
340.71084	2.94343
340.92031	2.59983
341.12977	2.79867
341.33921	-0
341.54865	2.83072
341.75807	-0
341.96749	2.74375
342.17689	2.93566
342.38628	2.58598
342.59566	2.46409
342.80503	-0
343.01439	2.76526
343.22374	3.25134
343.43307	2.76191
343.6424	2.65918
343.85171	4.54448
344.06102	2.70597
344.27031	2.54104
344.47959	2.60528
344.68886	3.89259
344.89813	3.22283
345.10737	2.77516
345.31661	2.86221
345.52584	-0
345.73506	2.50863
345.94426	2.68846
346.15346	3.12045
346.36264	2.97793
346.57181	3.02018
346.78098	2.50022
346.99013	2.71792
347.19927	-0
347.40839	2.64689
347.61751	2.77133
347.82662	3.99787
348.03571	2.91847
348.2448	2.85902
348.45387	2.90983
348.66294	2.94458
348.87199	2.56691
349.08103	2.9465
349.29006	2.83196
349.49908	2.62337
349.70809	-0
349.91708	3.07125
350.12607	-0
350.33504	3.05008
350.54401	2.6637
350.75296	3.23938
350.9619	2.55347
351.17083	2.40502
351.37975	3.47284
351.58866	-0
351.79756	2.97851
352.00645	3.00417
352.21532	3.19147
352.42419	3.13824
352.63304	2.60759
352.84188	-0
353.05071	2.75068
353.25954	2.9527
353.46834	2.42492
353.67714	2.87194
353.88593	2.6888
354.09471	-0
354.30347	2.61737
354.51223	2.58747
354.72097	3.52566
354.9297	2.55104
355.13842	3.05705
355.34713	2.98878
355.55583	3.17118
355.76452	2.72956
355.9732	3.01936
356.18186	-0
356.39052	2.88457
356.59916	3.19123
356.80779	3.96731
357.01641	3.22942
357.22502	2.81582
357.43362	2.9245
357.64221	2.97491
357.85079	2.77786
358.05935	2.59248
358.26791	2.56677
358.47645	2.5403
358.68498	2.67834
358.89351	-0
359.10202	3.28808
359.31052	3.1137
359.519	2.71932
359.72748	2.94583
359.93595	2.77901
360.1444	2.53787
360.35284	2.46215
360.56128	2.53517
360.7697	3.00713
360.97811	3.02892
361.18651	2.58797
361.3949	2.5731
361.60327	2.60059
361.81164	2.3766
362.01999	3.92621
362.22834	-0
362.43667	4.94163
362.64499	-0
362.8533	2.55596
363.0616	3.45352
363.26988	2.75615
363.47816	-0
363.68643	3.31998
363.89468	2.6361
364.10292	2.3761
364.31115	2.74349
364.51937	3.09351
364.72758	3.26746
364.93578	2.44685
365.14397	4.29518
365.35214	2.88522
365.56031	2.90222
365.76846	3.04878
365.9766	2.61199
366.18474	-0
366.39286	3.59133
366.60096	3.04627
366.80906	2.58846
367.01715	2.54863
367.22522	2.96273
367.43329	2.81405
367.64134	3.60083
367.84938	2.93587
368.05741	2.56003
368.26543	2.44263
368.47344	3.01726
368.68143	3.24229
368.88942	2.74173
369.09739	2.98306
369.30535	3.41485
369.51331	3.86212
369.72125	2.54617
369.92918	3.01491
370.13709	2.85598
370.345	2.5706
370.55289	2.6686
370.76078	2.61556
370.96865	-0
371.17651	3.27647
371.38436	2.55656
371.5922	-0
371.80003	3.12784
372.00785	3.14672
372.21565	2.82567
372.42344	3.09371
372.63123	2.59515
372.839	2.54716
373.04676	2.60497
373.25451	2.53054
373.46224	2.74507
373.66997	3.09259
373.87769	2.86545
374.08539	3.70712
374.29308	2.94755
374.50076	3.14685
374.70843	2.97931
374.91609	2.42017
375.12374	-0
375.33137	2.43962
375.539	-0
375.74661	2.86814
375.95421	2.90828
376.1618	3.5882
376.36938	3.4993
376.57695	3.78203
376.78451	2.6606
376.99205	3.03819
377.19959	-0
377.40711	2.73295
377.61462	2.59606
377.82212	2.87095
378.02961	-0
378.23709	2.84321
378.44455	2.61569
378.65201	2.87649
378.85945	3.01868
379.06688	2.42818
379.2743	2.94343
379.48171	4.10088
379.68911	-0
379.89649	2.78144
380.10387	2.83595
380.31123	3.64148
380.51859	2.62739
380.72593	3.40073
380.93326	2.61039
381.14057	3.08465
381.34788	-0
381.55518	2.62687
381.76246	2.69304
381.96973	3.52169
382.17699	2.83687
382.38424	2.92504
382.59148	2.7766
382.79871	2.58344
383.00592	2.96476
383.21313	-0
383.42032	2.40501
383.6275	2.96915
383.83467	2.47806
384.04183	-0
384.24898	2.72237
384.45611	2.8579
384.66324	2.3282
384.87035	2.84443
385.07745	-0
385.28454	3.09488
385.49162	-0
385.69869	2.92531
385.90575	2.90069
386.11279	2.84052
386.31982	2.70319
386.52684	3.00679
386.73385	3.32326
386.94085	-0
387.14784	2.73999
387.35482	2.61717
387.56178	2.92957
387.76873	3.24429
387.97567	2.43459
388.1826	3.01776
388.38952	-0
388.59643	2.91691
388.80332	2.86332
389.01021	-0
389.21708	2.50966
389.42394	3.22941
389.63079	2.68012
389.83763	2.91981
390.04446	2.76511
390.25127	3.75788
390.45807	-0
390.66487	2.48594
390.87165	-0
391.07842	2.9854
391.28517	2.82559
391.49192	2.93123
391.69865	2.45647
391.90538	3.00492
392.11209	2.78068
392.31879	2.43324
392.52548	3.3075
392.73215	2.57348
392.93882	-0
393.14547	3.15583
393.35212	2.96136
393.55875	2.72549
393.76537	2.54318
393.97197	-0
394.17857	4.11538
394.38516	2.48839
394.59173	-0
394.79829	2.44034
395.00484	2.41725
395.21138	2.75834
395.41791	2.95412
395.62442	2.59238
395.83093	2.98464
396.03742	2.79602
396.2439	3.64865
396.45037	3.12787
396.65683	2.58004
396.86327	2.46674
397.06971	2.98664
397.27613	3.22597
397.48254	2.97884
397.68894	2.81848
397.89533	3.03318
398.10171	3.65864
398.30807	-0
398.51442	3.6973
398.72077	2.99131
398.9271	2.87932
399.13342	3.00737
399.33972	2.81644
399.54602	-0
399.7523	4.1278
399.95857	3.02462
400.16484	-0
400.37108	2.72373
400.57732	2.81971
400.78355	-0
400.98976	-0
401.19597	-0
401.40216	2.41918
401.60834	-0
401.8145	4.60391
402.02066	2.5342
402.2268	2.61987
402.43294	2.64406
402.63906	3.12132
402.84517	-0
403.05127	2.60786
403.25735	2.66371
403.46343	-0
403.66949	2.92268
403.87554	2.57406
404.08158	2.8902
404.28761	2.99493
404.49363	3.1075
404.69963	2.47454
404.90562	3.29351
405.1116	3.57229
405.31757	-0
405.52353	3.43286
405.72948	2.64205
405.93541	2.58725
406.14134	3.21413
406.34725	2.9017
406.55315	2.65254
406.75904	2.29875
406.96491	2.65422
407.17078	2.79181
407.37663	2.85013
407.58247	2.55879
407.7883	2.85677
407.99412	2.36243
408.19992	2.82828
408.40572	-0
408.6115	2.32941
408.81727	2.80956
409.02303	2.55984
409.22878	2.7047
409.43452	3.18888
409.64024	2.5528
409.84595	2.31074
410.05165	-0
410.25734	-0
410.46302	2.72015
410.66868	2.74818
410.87434	2.55834
411.07998	2.40371
411.28561	2.37628
411.49123	2.58257
411.69684	-0
411.90243	3.19837
412.10801	2.61276
412.31359	3.17033
412.51915	2.82178
412.72469	2.95294
412.93023	4.08161
413.13575	2.60395
413.34127	2.65796
413.54677	2.43422
413.75226	2.2542
413.95773	3.16264
414.1632	2.87677
414.36865	2.55211
414.5741	2.29904
414.77953	3.41696
414.98494	2.7688
415.19035	3.37174
415.39575	2.90942
415.60113	2.95824
415.8065	2.56294
416.01186	2.51272
416.21721	2.71529
416.42254	2.42046
416.62787	2.79261
416.83318	2.54719
417.03848	2.5743
417.24377	2.8234
417.44905	-0
417.65431	2.43161
417.85956	-0
418.06481	-0
418.27004	2.57531
418.47525	2.66461
418.68046	2.58398
418.88565	2.22048
419.09084	2.67964
419.29601	3.12362
419.50116	2.66563
419.70631	2.72498
419.91145	2.70789
420.11657	2.53122
420.32168	2.26203
420.52678	2.75777
420.73187	2.56236
420.93694	2.98546
421.14201	-0
421.34706	2.38391
421.5521	2.55069
421.75713	2.67092
421.96214	2.67767
422.16715	2.53003
422.37214	2.56282
422.57712	2.70111
422.78209	2.57669
422.98705	-0
423.19199	3.05782
423.39692	2.48766
423.60185	2.42671
423.80675	2.86682
424.01165	2.45832
424.21654	-0
424.42141	2.62216
424.62627	2.48144
424.83112	-0
425.03596	2.94108
425.24079	2.60757
425.4456	2.58524
425.6504	2.92152
425.85519	2.60586
426.05997	3.6089
426.26474	2.35782
426.46949	2.36924
426.67423	2.71763
426.87897	2.29496
427.08368	2.82148
427.28839	2.5908
427.49309	2.31523
427.69777	2.54156
427.90244	2.18916
428.1071	2.73292
428.31175	2.36968
428.51638	2.33895
428.721	2.62103
428.92561	2.38675
429.13021	-0
429.3348	3.06377
429.53938	2.479
429.74394	2.43838
429.94849	2.75758
430.15303	2.75831
430.35756	3.28222
430.56207	2.74365
430.76658	4.6325
430.97107	2.61944
431.17555	2.54962
431.38002	2.39617
431.58447	2.6924
431.78891	2.36711
431.99335	2.61868
432.19777	2.42255
432.40217	2.4563
432.60657	2.30114
432.81095	2.99294
433.01532	2.99431
433.21968	2.44971
433.42403	2.45892
433.62837	3.86078
433.83269	3.50288
434.037	2.64434
434.2413	2.44359
434.44559	2.36888
434.64986	2.22518
434.85413	3.40848
435.05838	2.4647
435.26262	2.69555
435.46684	2.39883
435.67106	2.33727
435.87526	2.71586
436.07945	2.71907
436.28363	2.46603
436.4878	2.27696
436.69196	2.26571
436.8961	2.74915
437.10023	2.46633
437.30435	2.79373
437.50846	2.5278
437.71255	2.72045
437.91663	2.60843
438.1207	2.48901
438.32476	2.98065
438.52881	-0
438.73284	2.38582
438.93686	2.41197
439.14088	2.37763
439.34487	3.0732
439.54886	2.6095
439.75283	3.60539
439.95679	2.55147
440.16074	2.6499
440.36468	2.67889
440.56861	2.61181
440.77252	-0
440.97642	2.42656
441.18031	2.6339
441.38419	3.40336
441.58805	2.52788
441.79191	2.30886
441.99575	2.69297
442.19958	2.9021
442.40339	2.29209
442.6072	2.91433
442.81099	2.5171
443.01477	2.21063
443.21854	2.54708
443.42229	3.12671
443.62604	3.14237
443.82977	2.80465
444.03349	2.71559
444.2372	2.79128
444.44089	2.89797
444.64458	2.98978
444.84825	2.42444
445.0519	2.25962
445.25555	-0
445.45919	2.36731
445.66281	2.41206
445.86642	2.58781
446.07002	2.45013
446.2736	2.40855
446.47718	2.78625
446.68074	2.36789
446.88429	2.69067
447.08782	2.34259
447.29135	2.80118
447.49486	2.4918
447.69836	2.66051
447.90185	2.43407
448.10533	2.58419
448.30879	2.66942
448.51224	2.27612
448.71568	2.28608
448.91911	2.26181
449.12252	2.64855
449.32593	2.65905
449.52932	2.33551
449.7327	2.3497
449.93606	2.20289
450.13942	2.3928
450.34276	2.50136
450.54609	2.7703
450.74941	2.52394
450.95271	2.32606
451.15601	2.58366
451.35929	2.88699
451.56255	2.85266
451.76581	2.39717
451.96906	2.34144
452.17229	3.02578
452.37551	3.94324
452.57871	2.61053
452.78191	2.41597
452.98509	2.94675
453.18826	2.93729
453.39142	2.64667
453.59457	2.68775
453.7977	2.42219
454.00082	2.85895
454.20393	2.40969
454.40703	2.5765
454.61011	2.36167
454.81319	3.61043
455.01625	3.03525
455.21929	2.56014
455.42233	2.22445
455.62535	2.44603
455.82836	2.47235
456.03136	2.29298
456.23435	2.8288
456.43732	2.64351
456.64029	2.55781
456.84324	2.14851
457.04617	2.47929
457.2491	2.37336
457.45201	2.65769
457.65491	2.43407
457.8578	2.45102
458.06068	3.1048
458.26354	2.40427
458.46639	2.55636
458.66923	2.52887
458.87206	2.49323
459.07487	2.70123
459.27767	2.30876
459.48046	2.85183
459.68324	2.44776
459.886	2.51888
460.08876	2.58222
460.2915	2.37704
460.49422	2.34867
460.69694	2.53779
460.89964	3.21101
461.10233	2.40815
461.30501	2.46939
461.50768	3.28607
461.71033	2.84807
461.91297	2.5072
462.1156	-0
462.31822	2.5217
462.52082	2.75778
462.72342	2.67581
462.926	2.55503
463.12856	2.67995
463.33112	2.57615
463.53366	2.49302
463.73619	2.56665
463.93871	2.46488
464.14121	2.42965
464.34371	2.45866
464.54619	2.81101
464.74865	2.32263
464.95111	2.66224
465.15355	2.81466
465.35598	2.90692
465.5584	3.13341
465.76081	2.45235
465.9632	2.56179
466.16558	2.53939
466.36795	2.69791
466.57031	2.22924
466.77265	2.8073
466.97499	2.50728
467.1773	2.5725
467.37961	2.76652
467.58191	2.42326
467.78419	2.37894
467.98646	2.64824
468.18871	2.70063
468.39096	2.43793
468.59319	2.50816
468.79541	2.28423
468.99762	2.50848
469.19981	2.81256
469.402	3.08406
469.60417	2.38212
469.80632	2.27955
470.00847	2.42049
470.2106	2.70933
470.41272	2.55574
470.61483	2.42496
470.81692	2.49559
471.01901	2.40591
471.22108	2.49219
471.42313	2.60143
471.62518	2.32585
471.82721	2.49259
472.02923	3.42053
472.23124	2.55411
472.43323	2.58798
472.63522	2.74679
472.83719	2.51198
473.03915	2.54282
473.24109	2.66803
473.44302	2.79012
473.64494	2.47509
473.84685	2.55378
474.04875	2.56526
474.25063	2.40002
474.4525	2.68253
474.65436	2.60876
474.8562	2.87345
475.05804	3.08174
475.25986	2.80171
475.46166	2.58426
475.66346	2.36801
475.86524	2.45524
476.06701	2.55698
476.26877	2.84344
476.47051	2.73682
476.67225	2.81157
476.87397	2.74439
477.07567	3.26228
477.27737	2.38747
477.47905	2.49112
477.68072	2.75449
477.88238	2.6543
478.08402	2.59931
478.28565	2.6465
478.48727	2.65146
478.68888	2.31334
478.89048	2.79883
479.09206	2.7765
479.29363	2.306
479.49518	2.68471
479.69673	2.68101
479.89826	2.62482
480.09978	2.61148
480.30128	2.58926
480.50278	2.88495
480.70426	2.73358
480.90573	3.3979
481.10718	2.42181
481.30863	2.50469
481.51006	3.50118
481.71147	2.45038
481.91288	2.54707
482.11427	2.43779
482.31565	2.71132
482.51702	2.4475
482.71838	2.51767
482.91972	2.5642
483.12105	2.80566
483.32237	2.67435
483.52367	2.72623
483.72496	2.61273
483.92624	2.6775
484.12751	2.52318
484.32876	2.37301
484.53	2.59229
484.73123	2.59992
484.93245	2.78556
485.13365	2.64766
485.33484	2.40527
485.53602	2.57834
485.73719	2.51818
485.93834	2.65543
486.13948	2.84368
486.34061	2.69164
486.54172	2.55997
486.74282	2.68538
486.94391	3.29641
487.14499	2.5274
487.34605	2.74382
487.54711	2.62874
487.74814	2.49149
487.94917	2.38717
488.15018	2.42785
488.35118	2.49453
488.55217	2.43885
488.75315	2.5736
488.95411	2.41533
489.15506	2.57429
489.356	2.471
489.55692	2.47834
489.75783	2.48039
489.95873	2.68372
490.15962	2.37706
490.36049	2.60351
490.56136	2.58712
490.7622	2.60953
490.96304	2.91545
491.16386	2.646
491.36467	2.60075
491.56547	2.81722
491.76625	2.57196
491.96703	2.71813
492.16779	2.58764
492.36853	2.56198
492.56927	2.63986
492.76999	2.46424
492.9707	2.66098
493.17139	2.58568
493.37207	2.6344
493.57274	2.47201
493.7734	2.86821
493.97405	2.86881
494.17468	2.44762
494.3753	2.32883
494.5759	2.54192
494.7765	2.48437
494.97708	2.54914
495.17764	2.45257
495.3782	2.60474
495.57874	2.34367
495.77927	2.45261
495.97979	2.53037
496.18029	2.69059
496.38078	2.53857
496.58126	2.58641
496.78173	2.62877
496.98218	2.34683
497.18262	2.4725
497.38305	2.54094
497.58346	2.47772
497.78386	2.58083
497.98425	2.35323
498.18463	2.48235
498.38499	2.42397
498.58534	2.2614
498.78568	2.58073
498.98601	2.428
499.18632	2.3166
499.38662	2.48512
499.5869	2.31322
499.78718	2.51828
499.98744	2.33503
500.18769	2.29838
500.38792	2.35273
500.58814	2.39449
500.78835	2.24587
500.98855	2.28617
501.18873	2.39469
501.3889	2.38966
501.58906	2.30423
501.78921	2.38438
501.98934	2.35719
502.18946	2.36229
502.38956	2.39103
502.58966	2.38859
502.78974	2.29865
502.98981	2.36218
503.18986	2.36498
503.3899	2.37433
503.58993	2.40534
503.78995	2.36716
503.98995	2.36534
504.18994	2.36091
504.38992	2.50273
504.58989	2.29744
504.78984	2.32121
504.98978	2.32259
505.1897	2.2726
505.38962	2.40402
505.58952	2.19911
505.78941	2.32182
505.98928	2.28539
506.18914	2.2547
506.38899	2.36651
506.58883	2.31
506.78865	2.31274
506.98846	2.34236
507.18826	2.29857
507.38804	2.25574
507.58781	2.26784
507.78757	2.24572
507.98732	2.18625
508.18705	2.276
508.38677	2.2005
508.58648	2.25583
508.78617	2.30845
508.98585	2.2934
509.18552	2.24121
509.38517	2.25265
509.58481	2.20528
509.78444	2.29182
509.98406	2.25787
510.18366	2.31619
510.38325	2.23891
510.58283	2.12496
510.78239	2.20195
510.98195	2.17191
511.18148	2.26239
511.38101	2.2271
511.58052	2.34185
511.78002	2.23204
511.97951	2.25824
512.17898	2.21207
512.37844	2.16604
512.57789	2.13262
512.77732	2.1667
512.97674	2.21389
513.17615	2.09233
513.37555	2.09236
513.57493	2.12332
513.7743	2.21517
513.97365	2.1212
514.173	2.15601
514.37233	2.12029
514.57165	2.09735
514.77095	2.176
514.97024	2.09674
515.16952	2.15545
515.36879	2.17779
515.56804	2.09766
515.76728	2.06969
515.9665	2.14713
516.16572	2.08896
516.36492	2.07547
516.5641	2.15363
516.76328	2.07148
516.96244	2.08458
517.16159	2.09201
517.36072	2.0791
517.55984	2.08694
517.75895	2.13057
517.95805	2.07594
518.15713	2.04965
518.3562	2.05365
518.55526	2.00909
518.7543	2.09235
518.95333	2.06103
519.15235	2.03017
519.35135	2.08013
519.55034	2.00868
519.74932	1.98815
519.94829	2.03465
520.14724	2.01053
520.34618	2.01483
520.5451	2.0097
520.74402	2.02014
520.94292	2.01916
521.1418	1.96659
521.34068	1.96796
521.53954	2.00176
521.73838	2.00909
521.93722	1.9927
522.13604	2.01221
522.33485	1.99069
522.53364	1.93178
522.73242	1.9676
522.93119	1.94939
523.12995	1.95969
523.32869	1.95204
523.52742	1.96325
523.72613	1.96874
523.92484	1.96873
524.12353	1.95269
524.3222	1.95492
524.52087	1.93757
524.71952	1.95804
524.91815	1.93975
525.11678	1.88662
525.31539	1.95054
525.51399	1.95014
525.71257	1.89934
525.91114	1.8881
526.1097	1.91332
526.30825	1.9215
526.50678	1.93101
526.7053	1.90634
526.9038	1.86192
527.1023	1.87946
527.30078	1.90279
527.49924	1.88404
527.69769	1.86973
527.89613	1.89118
528.09456	1.88453
528.29297	1.87774
528.49137	1.87688
528.68976	1.84499
528.88814	1.86936
529.0865	1.82366
529.28484	1.83828
529.48318	1.86501
529.6815	1.85473
529.87981	1.83313
530.0781	1.81674
530.27638	1.82893
530.47465	1.83031
530.67291	1.80857
530.87115	1.79294
531.06938	1.80421
531.26759	1.82589
531.46579	1.8069
531.66398	1.80266
531.86216	1.81584
532.06032	1.81046
532.25847	1.80517
532.45661	1.79468
532.65473	1.7782
532.85284	1.77232
533.05094	1.78682
533.24902	1.79493
533.44709	1.75655
533.64514	1.74884
533.84319	1.76104
534.04122	1.76809
534.23923	1.75783
534.43724	1.73582
534.63523	1.76624
534.83321	1.74846
535.03117	1.75093
535.22912	1.79369
535.42706	1.72521
535.62498	1.75047
535.82289	1.74782
536.02079	1.7191
536.21867	1.72068
536.41654	1.68835
536.6144	1.72938
536.81225	1.70681
537.01008	1.70442
537.20789	1.67932
537.4057	1.68128
537.60349	1.70522
537.80127	1.69346
537.99903	1.67676
538.19678	1.68894
538.39452	1.69328
538.59224	1.70375
538.78995	1.6854
538.98765	1.67306
539.18534	1.66334
539.38301	1.65618
539.58067	1.66605
539.77831	1.66906
539.97594	1.65885
540.17356	1.63303
540.37116	1.6651
540.56876	1.647
540.76633	1.6413
540.9639	1.65097
541.16145	1.63911
541.35899	1.6373
541.55651	1.62227
541.75402	1.61719
541.95152	1.61222
542.149	1.61555
542.34647	1.62674
542.54393	1.6075
542.74138	1.59715
542.93881	1.61776
543.13623	1.61134
543.33363	1.60046
543.53102	1.60895
543.7284	1.60486
543.92576	1.5795
544.12311	1.59628
544.32045	1.5806
544.51777	1.56523
544.71508	1.58153
544.91238	1.58777
545.10966	1.56726
545.30693	1.57989
545.50419	1.56856
545.70143	1.56851
545.89866	1.57341
546.09588	1.54445
546.29308	1.5623
546.49027	1.55472
546.68745	1.55381
546.88461	1.55318
547.08176	1.53243
547.2789	1.54167
547.47602	1.53002
547.67313	1.53067
547.87023	1.52772
548.06731	1.53136
548.26438	1.5281
548.46143	1.53145
548.65848	1.52652
548.8555	1.50538
549.05252	1.51612
549.24952	1.5115
549.44651	1.50104
549.64348	1.49495
549.84045	1.51121
550.03739	1.49635
550.23433	1.4955
550.43125	1.50658
550.62816	1.49649
550.82505	1.49715
551.02193	1.49974
551.2188	1.48118
551.41565	1.48069
551.61249	1.46318
551.80932	1.4764
552.00613	1.48193
552.20293	1.47566
552.39972	1.46942
552.59649	1.46112
552.79325	1.45649
552.99	1.46514
553.18673	1.48149
553.38345	1.455
553.58015	1.44811
553.77684	1.44599
553.97352	1.45134
554.17019	1.44047
554.36684	1.43817
554.56348	1.42894
554.7601	1.42605
554.95671	1.42093
555.15331	1.43399
555.34989	1.43012
555.54646	1.42656
555.74302	1.42052
555.93956	1.42565
556.13609	1.41696
556.33261	1.41783
556.52911	1.40716
556.7256	1.41869
556.92207	1.4099
557.11854	1.39989
557.31498	1.40453
557.51142	1.40488
557.70784	1.39354
557.90425	1.38808
558.10064	1.39278
558.29702	1.38675
558.49339	1.38593
558.68974	1.3891
558.88608	1.38962
559.08241	1.39193
559.27872	1.37443
559.47502	1.38233
559.6713	1.3681
559.86758	1.37442
560.06383	1.36506
560.26008	1.36905
560.45631	1.36243
560.65253	1.35856
560.84873	1.35072
561.04492	1.35522
561.2411	1.35421
561.43726	1.35742
561.63341	1.34336
561.82955	1.33549
562.02567	1.34307
562.22178	1.34715
562.41787	1.34731
562.61395	1.34622
562.81002	1.33447
563.00608	1.32733
563.20212	1.32644
563.39814	1.32764
563.59416	1.32344
563.79016	1.3192
563.98614	1.31725
564.18211	1.31158
564.37807	1.31696
564.57402	1.31987
564.76995	1.30493
564.96587	1.31125
565.16177	1.30777
565.35766	1.29886
565.55354	1.31058
565.7494	1.28883
565.94525	1.30711
566.14109	1.29167
566.33691	1.28973
566.53272	1.28989
566.72851	1.28763
566.92429	1.28734
567.12006	1.27782
567.31581	1.29104
567.51155	1.27624
567.70728	1.26909
567.90299	1.28101
568.09869	1.26912
568.29438	1.27264
568.49005	1.27014
568.68571	1.27076
568.88135	1.26403
569.07698	1.25883
569.2726	1.25721
569.4682	1.26547
569.66379	1.25053
569.85937	1.25679
570.05493	1.25123
570.25048	1.25077
570.44601	1.2543
570.64153	1.24375
570.83704	1.25134
571.03253	1.24088
571.22801	1.24272
571.42348	1.23708
571.61893	1.23557
571.81437	1.23468
572.0098	1.23028
572.20521	1.2363
572.4006	1.23569
572.59599	1.22979
572.79136	1.22437
572.98671	1.22262
573.18206	1.21783
573.37738	1.2215
573.5727	1.21483
573.768	1.21775
573.96329	1.21662
574.15856	1.21207
574.35382	1.21277
574.54907	1.20923
574.7443	1.20337
574.93952	1.20814
575.13472	1.20084
575.32991	1.19748
575.52509	1.19949
575.72025	1.2022
575.9154	1.19764
576.11054	1.19664
576.30566	1.19279
576.50077	1.19004
576.69586	1.1922
576.89094	1.19719
577.08601	1.18167
577.28106	1.17873
577.4761	1.18292
577.67113	1.17443
577.86614	1.17581
578.06114	1.17907
578.25612	1.17574
578.45109	1.17355
578.64605	1.16912
578.84099	1.17487
579.03592	1.16675
579.23083	1.16228
579.42573	1.16592
579.62062	1.16543
579.81549	1.15748
580.01035	1.15616
580.2052	1.15723
580.40003	1.15874
580.59485	1.15713
580.78965	1.15196
580.98444	1.15423
581.17922	1.1495
581.37398	1.144
581.56873	1.14247
581.76346	1.14405
581.95818	1.14305
582.15289	1.14582
582.34758	1.139
582.54226	1.14138
582.73693	1.13663
582.93158	1.13311
583.12622	1.13384
583.32084	1.12955
583.51545	1.12996
583.71005	1.12924
583.90463	1.12562
584.0992	1.1267
584.29375	1.12218
584.48829	1.12142
584.68282	1.11884
584.87733	1.11536
585.07183	1.11885
585.26631	1.11516
585.46079	1.11493
585.65524	1.11388
585.84969	1.11484
586.04411	1.10932
586.23853	1.10684
586.43293	1.10238
586.62732	1.10523
586.82169	1.10782
587.01605	1.10021
587.2104	1.09927
587.40473	1.10141
587.59905	1.0968
587.79335	1.09314
587.98764	1.09289
588.18192	1.09269
588.37618	1.09085
588.57043	1.09015
588.76466	1.087
588.95888	1.08874
589.15309	1.08789
589.34728	1.08476
589.54146	1.08376
589.73562	1.08122
589.92977	1.07897
590.12391	1.08094
590.31803	1.08117
590.51214	1.07413
590.70623	1.07216
590.90031	1.07271
591.09438	1.07424
591.28843	1.07063
591.48247	1.06582
591.67649	1.06203
591.8705	1.06678
592.0645	1.06482
592.25848	1.05722
592.45245	1.05894
592.64641	1.05665
592.84035	1.05964
593.03427	1.05757
593.22818	1.05543
593.42208	1.05634
593.61597	1.05248
593.80984	1.05205
594.00369	1.05314
594.19754	1.04949
594.39136	1.04396
594.58518	1.04833
594.77898	1.04488
594.97277	1.04724
595.16654	1.04517
595.3603	1.03922
595.55404	1.04265
595.74777	1.03914
595.94149	1.03629
596.13519	1.03253
596.32888	1.03677
596.52255	1.03193
596.71621	1.02966
596.90985	1.03327
597.10349	1.02743
597.2971	1.03083
597.49071	1.03007
597.6843	1.02762
597.87787	1.02819
598.07143	1.02213
598.26498	1.02768
598.45851	1.0217
598.65203	1.02084
598.84554	1.02194
599.03903	1.01702
599.23251	1.01614
599.42597	1.01158
599.61942	1.01084
599.81285	1.00943
600.00627	1.0086
600.19968	1.01476
600.39307	1.00517
600.58645	1.008
600.77981	1.00495
600.97316	1.00072
601.1665	1.00332
601.35982	1.00412
601.55313	1.00162
601.74642	0.99945
601.9397	0.9993
602.13297	0.99686
602.32622	0.99516
602.51946	0.99778
602.71268	0.99377
602.90589	0.99201
603.09908	0.98643
603.29226	0.99352
603.48543	0.98957
603.67858	0.98869
603.87172	0.98821
604.06484	0.98659
604.25795	0.98764
604.45105	0.98722
604.64413	0.98226
604.8372	0.9818
605.03025	0.98243
605.22329	0.97991
605.41631	0.97713
605.60932	0.97867
605.80232	0.98073
605.9953	0.97723
606.18827	0.97401
606.38122	0.97483
606.57416	0.97416
606.76709	0.97264
606.96	0.97019
607.1529	0.96986
607.34578	0.96578
607.53865	0.96555
607.7315	0.9633
607.92434	0.96269
608.11717	0.96534
608.30998	0.9668
608.50278	0.96067
608.69556	0.96212
608.88833	0.95925
609.08109	0.95707
609.27383	0.95695
609.46656	0.95461
609.65927	0.9549
609.85197	0.95666
610.04465	0.95286
610.23732	0.95401
610.42998	0.95175
610.62262	0.94921
610.81525	0.94697
611.00786	0.94888
611.20046	0.94507
611.39304	0.94608
611.58561	0.94633
611.77817	0.94812
611.97071	0.94156
612.16324	0.94204
612.35575	0.94073
612.54825	0.94097
612.74073	0.93915
612.9332	0.93878
613.12566	0.93663
613.3181	0.93714
613.51053	0.9351
613.70294	0.93229
613.89534	0.93606
614.08772	0.93181
614.2801	0.92968
614.47245	0.93262
614.66479	0.92825
614.85712	0.92908
615.04943	0.92333
615.24173	0.92551
615.43402	0.92099
615.62629	0.92316
615.81854	0.92082
616.01079	0.91976
616.20301	0.9186
616.39523	0.91785
616.58743	0.91586
616.77961	0.91818
616.97178	0.91172
617.16394	0.91284
617.35608	0.91352
617.5482	0.91145
617.74032	0.91203
617.93242	0.91028
618.1245	0.91281
618.31657	0.91251
618.50863	0.90626
618.70067	0.90739
618.89269	0.90734
619.08471	0.90802
619.27671	0.90515
619.46869	0.90268
619.66066	0.90568
619.85261	0.89965
620.04455	0.90059
620.23648	0.89974
620.42839	0.89919
620.62029	0.89792
620.81217	0.89802
621.00404	0.89392
621.1959	0.89294
621.38774	0.89296
621.57956	0.89107
621.77138	0.8935
621.96317	0.88901
622.15496	0.88936
622.34672	0.88716
622.53848	0.88912
622.73022	0.88691
622.92194	0.88582
623.11365	0.88347
623.30535	0.88023
623.49703	0.88583
623.6887	0.88411
623.88035	0.88127
624.07199	0.88307
624.26362	0.88039
624.45523	0.87972
624.64682	0.87775
624.8384	0.87769
625.02997	0.87707
625.22152	0.87641
625.41306	0.87483
625.60458	0.87472
625.79609	0.87274
625.98759	0.87225
626.17907	0.87162
626.37053	0.87124
626.56198	0.8692
626.75342	0.86849
626.94484	0.86807
627.13625	0.86706
627.32764	0.86585
627.51902	0.86518
627.71039	0.86513
627.90174	0.86231
628.09307	0.85866
628.28439	0.86045
628.4757	0.8584
628.66699	0.85777
628.85827	0.86082
629.04953	0.85894
629.24078	0.85486
629.43202	0.85662
629.62324	0.85483
629.81444	0.85256
630.00563	0.852
630.19681	0.8517
630.38797	0.85376
630.57912	0.85161
630.77025	0.8505
630.96137	0.85129
631.15247	0.84982
631.34356	0.84873
631.53464	0.84858
631.7257	0.84795
631.91674	0.84377
632.10778	0.84386
632.29879	0.8446
632.48979	0.84164
632.68078	0.84115
632.87176	0.83936
633.06271	0.84172
633.25366	0.83916
633.44459	0.83923
633.6355	0.83776
633.8264	0.84012
634.01729	0.83587
634.20816	0.83594
634.39902	0.83507
634.58986	0.83392
634.78069	0.83256
634.9715	0.83201
635.1623	0.8302
635.35309	0.83033
635.54385	0.82997
635.73461	0.82903
635.92535	0.82803
636.11608	0.82699
636.30679	0.82709
636.49748	0.82392
636.68817	0.82523
636.87883	0.82376
637.06949	0.82376
637.26013	0.8207
637.45075	0.8218
637.64136	0.8208
637.83195	0.82014
638.02253	0.82037
638.2131	0.81987
638.40365	0.81671
638.59419	0.81451
638.78471	0.81621
638.97522	0.81499
639.16571	0.81513
639.35619	0.81253
639.54665	0.81108
639.7371	0.81204
639.92753	0.81016
640.11795	0.81222
640.30836	0.81267
640.49875	0.80992
640.68912	0.80524
640.87949	0.80773
641.06983	0.80435
641.26016	0.80391
641.45048	0.80732
641.64078	0.80146
641.83107	0.80274
642.02134	0.80121
642.2116	0.80063
642.40185	0.80185
642.59208	0.7996
642.78229	0.79983
642.97249	0.79881
643.16268	0.79666
643.35285	0.79582
643.543	0.79568
643.73314	0.79669
643.92327	0.79589
644.11338	0.7961
644.30348	0.7918
644.49356	0.79375
644.68363	0.7944
644.87368	0.79207
645.06372	0.78972
645.25375	0.79003
645.44376	0.78622
645.63375	0.7878
645.82373	0.7877
646.0137	0.78371
646.20365	0.7856
646.39358	0.78186
646.5835	0.78454
646.77341	0.7844
646.9633	0.78047
647.15318	0.78272
647.34304	0.78191
647.53289	0.78105
647.72272	0.78048
647.91254	0.77844
648.10234	0.7773
648.29213	0.77514
648.4819	0.77826
648.67166	0.77738
648.86141	0.77583
649.05114	0.77495
649.24085	0.77365
649.43055	0.77257
649.62024	0.77209
649.80991	0.77186
649.99957	0.77171
650.18921	0.77052
650.37883	0.7681
650.56844	0.76847
650.75804	0.76736
650.94762	0.76716
651.13719	0.7668
651.32674	0.7659
651.51628	0.766
651.70581	0.76717
651.89531	0.76512
652.08481	0.76448
652.27429	0.7631
652.46375	0.76022
652.6532	0.76021
652.84263	0.7601
653.03205	0.75936
653.22146	0.75987
653.41085	0.75981
653.60022	0.75723
653.78958	0.75614
653.97893	0.75507
654.16826	0.75557
654.35758	0.75483
654.54688	0.7555
654.73617	0.75343
654.92544	0.75083
655.11469	0.75313
655.30394	0.75251
655.49316	0.75238
655.68238	0.75118
655.87157	0.7517
656.06076	0.74946
656.24992	0.74884
656.43908	0.74993
656.62822	0.7488
656.81734	0.74727
657.00645	0.74708
657.19554	0.74467
657.38462	0.74545
657.57368	0.74143
657.76273	0.74399
657.95177	0.74242
658.14079	0.7404
658.32979	0.73947
658.51878	0.7381
658.70776	0.7371
658.89672	0.73964
659.08566	0.73762
659.27459	0.73659
659.46351	0.73518
659.65241	0.73496
659.84129	0.73624
660.03016	0.73283
660.21902	0.73509
660.40786	0.73194
660.59669	0.732
660.7855	0.73056
660.9743	0.7315
661.16308	0.7298
661.35184	0.72935
661.5406	0.72902
661.72933	0.72838
661.91805	0.72671
662.10676	0.72772
662.29545	0.72603
662.48413	0.72659
662.67279	0.72606
662.86144	0.72515
663.05007	0.72274
663.23869	0.72404
663.42729	0.72338
663.61588	0.72053
663.80445	0.72005
663.99301	0.71958
664.18155	0.72067
664.37008	0.71964
664.55859	0.71735
664.74709	0.71632
664.93557	0.71712
665.12404	0.71388
665.3125	0.71699
665.50093	0.71664
665.68936	0.71516
665.87777	0.7122
666.06616	0.71365
666.25454	0.71265
666.4429	0.71253
666.63125	0.7121
666.81958	0.70936
667.0079	0.70937
667.19621	0.70801
667.38449	0.70764
667.57277	0.70857
667.76103	0.70629
667.94927	0.70862
668.1375	0.70648
668.32571	0.7043
668.51391	0.70641
668.70209	0.70416
668.89026	0.70336
669.07842	0.70174
669.26656	0.70228
669.45468	0.70106
669.64279	0.70039
669.83088	0.69824
670.01896	0.69853
670.20702	0.70089
670.39507	0.70017
670.58311	0.6996
670.77112	0.69782
670.95913	0.69674
671.14712	0.69625
671.33509	0.69652
671.52305	0.69446
671.71099	0.69411
671.89892	0.69162
672.08683	0.69408
672.27473	0.6915
672.46262	0.69258
672.65048	0.69263
672.83834	0.69118
673.02617	0.68991
673.214	0.68976
673.40181	0.68723
673.5896	0.68814
673.77738	0.68647
673.96514	0.68762
674.15289	0.68606
674.34062	0.68538
674.52834	0.6861
674.71604	0.68509
674.90373	0.68599
675.0914	0.68493
675.27906	0.68285
675.4667	0.68131
675.65433	0.68308
675.84194	0.68084
676.02954	0.67974
676.21712	0.68161
676.40468	0.67938
676.59224	0.67942
676.77977	0.67875
676.96729	0.67897
677.1548	0.6758
677.34229	0.67693
677.52977	0.67767
677.71723	0.67554
677.90467	0.67622
678.09211	0.67586
678.27952	0.67217
678.46692	0.67402
678.65431	0.67472
678.84168	0.67174
679.02903	0.6722
679.21637	0.66908
679.4037	0.67177
679.59101	0.67105
679.7783	0.66883
679.96558	0.66986
680.15285	0.66876
680.34009	0.6669
680.52733	0.66926
680.71455	0.66705
680.90175	0.66676
681.08894	0.66651
681.27611	0.66341
681.46327	0.66528
681.65041	0.6654
681.83754	0.66348
682.02465	0.66103
682.21175	0.66284
682.39883	0.6631
682.5859	0.66341
682.77295	0.66139
682.95999	0.66297
683.14701	0.65973
683.33402	0.66041
683.52101	0.65899
683.70799	0.65917
683.89495	0.65875
684.08189	0.658
684.26882	0.65836
684.45574	0.65573
684.64264	0.65492
684.82952	0.65444
685.01639	0.65448
685.20325	0.65463
685.39009	0.6537
685.57691	0.65401
685.76372	0.65256
685.95051	0.65402
686.13729	0.65441
686.32405	0.65035
686.5108	0.65146
686.69753	0.65031
686.88425	0.65008
687.07095	0.65093
687.25764	0.6501
687.44431	0.64913
687.63097	0.64809
687.81761	0.64682
688.00424	0.64788
688.19085	0.64768
688.37744	0.646
688.56402	0.64697
688.75059	0.64523
688.93714	0.64284
689.12367	0.64544
689.31019	0.64403
689.49669	0.64271
689.68318	0.64148
689.86966	0.64107
690.05611	0.64147
690.24256	0.6416
690.42898	0.64205
690.6154	0.64118
690.80179	0.63991
690.98818	0.63872
691.17454	0.64027
691.36089	0.63929
691.54723	0.63807
691.73355	0.63796
691.91985	0.63783
692.10614	0.6369
692.29242	0.63712
692.47868	0.63488
692.66492	0.63603
692.85115	0.63746
693.03736	0.63483
693.22356	0.63369
693.40974	0.6332
693.59591	0.63362
693.78206	0.63424
693.9682	0.63323
694.15432	0.63238
694.34043	0.63229
694.52652	0.63027
694.71259	0.63017
694.89865	0.63045
695.0847	0.63059
695.27073	0.6284
695.45674	0.62847
695.64274	0.62731
695.82872	0.63053
696.01469	0.62842
696.20064	0.62629
696.38658	0.62763
696.5725	0.62731
696.75841	0.62522
696.9443	0.62615
697.13017	0.62529
697.31603	0.62385
697.50188	0.62547
697.68771	0.62614
697.87352	0.62457
698.05932	0.62401
698.2451	0.62288
698.43087	0.6236
698.61662	0.62284
698.80236	0.62199
698.98808	0.62007
699.17379	0.62171
699.35948	0.61938
699.54516	0.61821
699.73082	0.62017
699.91646	0.61973
700.10209	0.61842
700.2877	0.62127
700.4733	0.61962
700.65888	0.61838
700.84445	0.61841
701.03	0.61671
701.21554	0.61893
701.40106	0.61699
701.58657	0.6158
701.77206	0.61653
701.95753	0.61511
702.14299	0.61585
702.32844	0.61358
702.51387	0.61301
702.69928	0.61342
702.88468	0.61244
703.07006	0.61301
703.25543	0.61477
703.44078	0.61241
703.62611	0.61394
703.81143	0.60976
703.99674	0.61343
704.18203	0.6112
704.3673	0.61144
704.55256	0.6126
704.7378	0.60775
704.92303	0.60821
705.10824	0.60973
705.29344	0.61039
705.47862	0.60779
705.66379	0.60849
705.84894	0.60815
706.03407	0.60991
706.21919	0.60896
706.4043	0.60664
706.58938	0.60825
706.77446	0.60479
706.95951	0.60539
707.14456	0.60571
707.32958	0.60393
707.51459	0.60444
707.69959	0.60471
707.88457	0.60628
708.06953	0.60409
708.25448	0.60426
708.43941	0.60318
708.62433	0.60183
708.80923	0.60299
708.99412	0.60285
709.17899	0.60195
709.36385	0.60176
709.54869	0.60017
709.73351	0.60107
709.91832	0.60138
710.10311	0.5999
710.28789	0.60154
710.47265	0.59912
710.6574	0.60151
710.84213	0.60135
711.02685	0.60129
711.21155	0.59984
711.39623	0.59943
711.5809	0.59717
711.76555	0.5979
711.95019	0.59918
712.13481	0.59928
712.31942	0.59706
712.50401	0.6003
712.68859	0.59587
712.87314	0.5965
713.05769	0.59663
713.24222	0.59656
713.42673	0.59609
713.61123	0.59545
713.79571	0.59544
713.98018	0.59461
714.16463	0.59556
714.34906	0.59374
714.53348	0.59308
714.71788	0.59451
714.90227	0.59431
715.08665	0.59094
715.271	0.59235
715.45534	0.59176
715.63967	0.59232
715.82398	0.5927
716.00827	0.59195
716.19255	0.59321
716.37682	0.59241
716.56106	0.59178
716.7453	0.5923
716.92951	0.59023
717.11371	0.58981
717.2979	0.59009
717.48207	0.59034
717.66622	0.59035
717.85036	0.58902
718.03448	0.58799
718.21859	0.58915
718.40268	0.58863
718.58675	0.58863
718.77081	0.58728
718.95486	0.58868
719.13889	0.58778
719.3229	0.58783
719.5069	0.58757
719.69088	0.58724
719.87484	0.58898
720.05879	0.58697
720.24273	0.58719
720.42665	0.58548
720.61055	0.58734
720.79444	0.58518
720.97831	0.58667
721.16216	0.58581
721.346	0.58593
721.52983	0.58631
721.71364	0.58622
721.89743	0.58482
722.08121	0.58428
722.26497	0.58306
722.44872	0.58406
722.63245	0.58459
722.81616	0.58489
722.99986	0.5829
723.18354	0.58239
723.36721	0.5855
723.55086	0.58313
723.7345	0.5838
723.91812	0.58362
724.10172	0.58235
724.28531	0.58327
724.46888	0.58252
724.65244	0.5838
724.83598	0.58076
725.01951	0.58166
725.20302	0.58283
725.38651	0.58299
725.56999	0.58223
725.75345	0.58221
725.9369	0.58312
726.12033	0.5812
726.30374	0.58034
726.48714	0.58122
726.67053	0.58059
726.8539	0.57979
727.03725	0.57962
727.22059	0.57898
727.40391	0.58168
727.58721	0.57971
727.7705	0.5797
727.95377	0.57875
728.13703	0.57853
728.32027	0.57854
728.5035	0.57794
728.68671	0.57887
728.8699	0.57949
729.05308	0.57895
729.23624	0.57919
729.41939	0.57752
729.60252	0.5775
729.78564	0.57528
729.96874	0.57721
730.15182	0.57712
730.33489	0.57787
730.51794	0.57608
730.70098	0.57731
730.884	0.57734
731.067	0.576
731.24999	0.57595
731.43296	0.57739
731.61592	0.57597
731.79886	0.57534
731.98179	0.57683
732.1647	0.57805
732.34759	0.57703
732.53047	0.57577
732.71333	0.57602
732.89618	0.57484
733.07901	0.57533
733.26182	0.57417
733.44462	0.57588
733.6274	0.57545
733.81017	0.57434
733.99292	0.57547
734.17565	0.57423
734.35837	0.57333
734.54108	0.57371
734.72376	0.57365
734.90644	0.57362
735.08909	0.57306
735.27173	0.57519
735.45435	0.57275
735.63696	0.57359
735.81955	0.57332
736.00213	0.57433
736.18469	0.57409
736.36724	0.57228
736.54976	0.572
736.73228	0.5719
736.91477	0.57197
737.09725	0.57198
737.27972	0.57342
737.46217	0.57055
737.6446	0.57101
737.82702	0.57027
738.00942	0.5731
738.1918	0.5727
738.37417	0.57157
738.55653	0.57035
738.73886	0.57102
738.92118	0.57119
739.10349	0.57
739.28578	0.56975
739.46805	0.56971
739.65031	0.56896
739.83255	0.5688
740.01478	0.56765
740.19699	0.56873
740.37918	0.56836
740.56136	0.56794
740.74352	0.56706
740.92567	0.56807
741.1078	0.56849
741.28991	0.5672
741.47201	0.56763
741.65409	0.56723
741.83616	0.56587
742.01821	0.56697
742.20024	0.56499
742.38226	0.5648
742.56426	0.56365
742.74625	0.56362
742.92822	0.56542
743.11017	0.5643
743.29211	0.56402
743.47403	0.56338
743.65594	0.56281
743.83783	0.56239
744.0197	0.56272
744.20156	0.5619
744.3834	0.56036
744.56523	0.56089
744.74704	0.56054
744.92883	0.56013
745.11061	0.55857
745.29237	0.5585
745.47412	0.55794
745.65585	0.55543
745.83756	0.55753
746.01926	0.55573
746.20094	0.55503
746.38261	0.55616
746.56426	0.55357
746.74589	0.55338
746.92751	0.5526
747.10911	0.55144
747.2907	0.5502
747.47227	0.54901
747.65382	0.54969
747.83536	0.54855
748.01688	0.54803
748.19838	0.54834
748.37987	0.54687
748.56135	0.54548
748.7428	0.54568
748.92424	0.54377
749.10567	0.54123
749.28708	0.54167
749.46847	0.5408
749.64985	0.53766
749.83121	0.53859
750.01255	0.53584
750.19388	0.53649
750.37519	0.53306
750.55649	0.53394
750.73777	0.53384
750.91903	0.53194
751.10028	0.53137
751.28151	0.52881
751.46273	0.52749
751.64393	0.52622
751.82511	0.52723
752.00628	0.52535
752.18743	0.52332
752.36856	0.52095
752.54968	0.51828
752.73079	0.52069
752.91187	0.51791
753.09294	0.51631
753.274	0.51497
753.45504	0.51299
753.63606	0.50974
753.81706	0.50934
753.99805	0.51014
754.17903	0.50499
754.35998	0.50555
754.54093	0.50178
754.72185	0.49993
754.90276	0.49938
755.08365	0.49695
755.26453	0.4948
755.44539	0.49432
755.62623	0.4904
755.80706	0.4883
755.98787	0.48662
756.16867	0.48339
756.34945	0.48427
756.53021	0.48111
756.71096	0.47711
756.89169	0.47467
757.07241	0.47269
757.25311	0.47007
757.43379	0.46947
757.61445	0.46633
757.79511	0.46324
757.97574	0.46134
758.15636	0.45963
758.33696	0.45673
758.51754	0.45342
758.69811	0.45127
758.87867	0.45041
759.0592	0.44806
759.23972	0.44413
759.42023	0.44362
759.60072	0.43979
759.78119	0.43741
759.96164	0.43274
760.14208	0.43121
760.32251	0.42908
760.50291	0.42472
760.6833	0.42305
760.86368	0.41937
761.04404	0.41768
761.22438	0.41407
761.4047	0.41115
761.58501	0.40821
761.76531	0.40469
761.94558	0.403
762.12584	0.40005
762.30609	0.39865
762.48632	0.39405
762.66653	0.39156
762.84672	0.3887
763.0269	0.38478
763.20707	0.38188
763.38721	0.38101
763.56734	0.37633
763.74746	0.37267
763.92756	0.36991
764.10764	0.36813
764.2877	0.3626
764.46775	0.36121
764.64778	0.35737
764.8278	0.35546
765.0078	0.35302
765.18779	0.34892
765.36775	0.34636
765.5477	0.34507
765.72764	0.342
765.90756	0.33845
766.08746	0.33753
766.26735	0.33281
766.44722	0.33013
766.62707	0.32687
766.80691	0.32454
766.98673	0.32236
767.16653	0.31945
767.34632	0.31622
767.52609	0.31429
767.70585	0.3096
767.88559	0.30795
768.06531	0.30478
768.24502	0.30211
768.42471	0.30002
768.60438	0.29709
768.78404	0.29508
768.96368	0.29151
769.1433	0.29032
769.32291	0.28684
769.5025	0.28432
769.68208	0.28348
769.86164	0.28063
770.04118	0.2774
770.22071	0.27525
770.40022	0.2728
770.57971	0.2719
770.75919	0.26755
770.93865	0.26551
771.11809	0.26338
771.29752	0.26099
771.47693	0.25945
771.65633	0.25772
771.83571	0.25501
772.01507	0.25292
772.19442	0.25073
772.37375	0.24938
772.55306	0.24632
772.73236	0.24525
772.91164	0.24236
773.0909	0.24191
773.27015	0.23866
773.44938	0.23749
773.6286	0.23573
773.8078	0.23407
773.98698	0.23273
774.16614	0.23022
774.34529	0.22947
774.52443	0.22807
774.70354	0.22587
774.88264	0.22456
775.06173	0.22208
775.24079	0.22154
775.41984	0.21938
775.59888	0.21869
775.77789	0.21743
775.9569	0.21533
776.13588	0.21439
776.31485	0.2131
776.4938	0.21162
776.67274	0.21107
776.85166	0.21006
777.03056	0.20894
777.20944	0.20725
777.38831	0.20584
777.56717	0.20527
777.746	0.20493
777.92482	0.20349
778.10363	0.2018
778.28242	0.19958
778.46119	0.19983
778.63994	0.19802
778.81868	0.19781
778.9974	0.1974
779.1761	0.19684
779.35479	0.1948
779.53346	0.19513
779.71212	0.19448
779.89076	0.19233
780.06938	0.1926
780.24799	0.19128
780.42658	0.19164
780.60515	0.18926
780.78371	0.1887
780.96225	0.18899
781.14077	0.18752
781.31928	0.18818
781.49777	0.18707
781.67624	0.18597
781.8547	0.1853
782.03314	0.18464
782.21156	0.18499
782.38997	0.18347
782.56836	0.18404
782.74673	0.18292
782.92509	0.18216
783.10343	0.18164
783.28176	0.18176
783.46007	0.18303
783.63836	0.18255
783.81663	0.18097
783.99489	0.18029
784.17313	0.17948
784.35136	0.17955
784.52957	0.17997
784.70776	0.1802
784.88593	0.18022
785.06409	0.17854
785.24224	0.1782
785.42036	0.17846
785.59847	0.17907
785.77656	0.17819
785.95464	0.17852
786.1327	0.17853
786.31074	0.17751
786.48877	0.17683
786.66678	0.17665
786.84477	0.17853
787.02275	0.17716
787.20071	0.17864
787.37865	0.17693
787.55658	0.177
787.73449	0.17688
787.91238	0.17804
788.09026	0.17605
788.26812	0.17616
788.44596	0.1772
788.62379	0.17703
788.8016	0.17626
788.9794	0.17601
789.15717	0.17687
789.33493	0.17677
789.51268	0.17656
789.6904	0.17713
789.86811	0.17881
790.04581	0.17808
790.22349	0.17724
790.40115	0.17805
790.57879	0.17719
790.75642	0.17711
790.93403	0.17822
791.11162	0.17837
791.2892	0.17799
791.46676	0.17806
791.6443	0.17965
791.82183	0.17812
791.99934	0.17873
792.17684	0.1781
792.35431	0.17931
792.53177	0.17742
792.70922	0.17892
792.88665	0.17978
793.06406	0.17941
793.24145	0.17967
793.41883	0.17982
793.59619	0.17976
793.77353	0.17974
793.95086	0.18035
794.12817	0.1818
794.30546	0.18145
794.48274	0.18041
794.66	0.18072
794.83724	0.1815
795.01447	0.18164
795.19168	0.18034
795.36887	0.18097
795.54605	0.18187
795.72321	0.18372
795.90035	0.18282
796.07748	0.18483
796.25459	0.18367
796.43168	0.18225
796.60876	0.18366
796.78582	0.18385
796.96286	0.18431
797.13989	0.18676
797.3169	0.18611
797.49389	0.18446
797.67086	0.18597
797.84782	0.18531
798.02477	0.18617
798.20169	0.18559
798.3786	0.18567
798.55549	0.18407
798.73237	0.18608
798.90923	0.18696
799.08607	0.1877
799.26289	0.18807
799.4397	0.18783
799.61649	0.18852
799.79327	0.18698
799.97002	0.18757
800.14676	0.18885
800.32349	0.18881
800.5002	0.18862
800.67689	0.19015
800.85356	0.19105
801.03022	0.1904
801.20686	0.19114
801.38348	0.18982
801.56009	0.18993
801.73668	0.19177
801.91325	0.19124
802.08981	0.19215
802.26635	0.19166
802.44287	0.19316
802.61937	0.19114
802.79586	0.19275
802.97233	0.19243
803.14879	0.19449
803.32523	0.19368
803.50165	0.19468
803.67805	0.19447
803.85444	0.19507
804.03081	0.19617
804.20717	0.19528
804.3835	0.19442
804.55983	0.19669
804.73613	0.1953
804.91242	0.19741
805.08869	0.19578
805.26494	0.19768
805.44117	0.19762
805.61739	0.19818
805.7936	0.19923
805.96978	0.19845
806.14595	0.20057
806.3221	0.20123
806.49824	0.20101
806.67436	0.20096
806.85046	0.20091
807.02654	0.20071
807.20261	0.20328
807.37866	0.20347
807.55469	0.20169
807.73071	0.20428
807.90671	0.20364
808.08269	0.20405
808.25866	0.20352
808.43461	0.20475
808.61054	0.20632
808.78645	0.20448
808.96235	0.20357
809.13823	0.20595
809.3141	0.20551
809.48995	0.20257
809.66578	0.20623
809.84159	0.20614
810.01739	0.20686
810.19317	0.20657
810.36893	0.20707
810.54468	0.20541
810.7204	0.20661
810.89612	0.20785
811.07181	0.20695
811.24749	0.20812
811.42315	0.20966
811.5988	0.20742
811.77442	0.20856
811.95003	0.20992
812.12563	0.20961
812.3012	0.21033
812.47676	0.21146
812.65231	0.21125
812.82783	0.21294
813.00334	0.21245
813.17883	0.21218
813.35431	0.2132
813.52976	0.21359
813.70521	0.21395
813.88063	0.21327
814.05604	0.21483
814.23143	0.21317
814.4068	0.21507
814.58215	0.21463
814.75749	0.21528
814.93281	0.21694
815.10812	0.21572
815.28341	0.21498
815.45868	0.21647
815.63393	0.21584
815.80917	0.21674
815.98439	0.21671
816.15959	0.21676
816.33478	0.21737
816.50995	0.21802
816.6851	0.21919
816.86023	0.21813
817.03535	0.21926
817.21045	0.218
817.38553	0.21951
817.5606	0.21874
817.73565	0.21956
817.91068	0.22198
818.0857	0.22059
818.2607	0.22084
818.43568	0.22084
818.61064	0.21996
818.78559	0.22267
818.96052	0.22194
819.13543	0.2231
819.31033	0.22175
819.48521	0.22332
819.66007	0.22314
819.83491	0.22509
820.00974	0.22339
820.18455	0.22187
820.35935	0.22469
820.53412	0.22532
820.70888	0.22638
820.88362	0.22502
821.05835	0.22725
821.23306	0.22531
821.40775	0.22747
821.58242	0.22711
821.75708	0.22706
821.93172	0.22815
822.10634	0.22829
822.28095	0.22781
822.45554	0.22979
822.63011	0.22791
822.80466	0.22889
822.9792	0.22946
823.15372	0.23069
823.32822	0.23063
823.50271	0.23087
823.67718	0.23241
823.85163	0.23012
824.02606	0.23195
824.20048	0.23226
824.37488	0.23248
824.54926	0.2315
824.72363	0.23225
824.89798	0.23356
825.07231	0.23299
825.24663	0.23336
825.42092	0.23521
825.5952	0.23452
825.76947	0.2337
825.94371	0.23461
826.11794	0.23614
826.29215	0.23474
826.46635	0.23718
826.64052	0.23817
826.81468	0.23641
826.98883	0.23616
827.16295	0.23745
827.33706	0.23686
827.51115	0.23896
827.68523	0.23873
827.85928	0.23721
828.03332	0.23967
828.20735	0.2361
828.38135	0.23962
828.55534	0.23808
828.72931	0.23836
828.90327	0.23773
829.0772	0.23804
829.25112	0.23873
829.42502	0.24096
829.59891	0.23899
829.77278	0.24046
829.94663	0.24064
830.12046	0.2417
830.29428	0.24166
830.46808	0.2414
830.64186	0.24324
830.81562	0.24297
830.98937	0.24263
831.1631	0.2424
831.33681	0.24451
831.51051	0.24358
831.68419	0.24538
831.85785	0.24571
832.03149	0.24291
832.20512	0.24483
832.37873	0.2457
832.55232	0.24429
832.72589	0.24406
832.89945	0.24694
833.07299	0.24619
833.24652	0.2467
833.42002	0.24631
833.59351	0.24684
833.76698	0.25
833.94044	0.24754
834.11387	0.24978
834.28729	0.24772
834.46069	0.2469
834.63408	0.24833
834.80745	0.24923
834.9808	0.25054
835.15413	0.25141
835.32745	0.25106
835.50075	0.25166
835.67403	0.25276
835.84729	0.25112
836.02054	0.25064
836.19377	0.25247
836.36698	0.25254
836.54017	0.25123
836.71335	0.25212
836.88651	0.25417
837.05965	0.25207
837.23278	0.2527
837.40589	0.25434
837.57898	0.25517
837.75205	0.25278
837.92511	0.25334
838.09815	0.2562
838.27117	0.2549
838.44417	0.25334
838.61716	0.25682
838.79013	0.25473
838.96308	0.25756
839.13602	0.25692
839.30893	0.25577
839.48183	0.25524
839.65472	0.25824
839.82758	0.25683
840.00043	0.25867
840.17326	0.25904
840.34607	0.25874
840.51887	0.25898
840.69165	0.25635
840.86441	0.25911
841.03715	0.25847
841.20988	0.25916
841.38259	0.26
841.55528	0.26251
841.72795	0.26193
841.90061	0.26082
842.07325	0.2626
842.24587	0.26264
842.41848	0.26175
842.59107	0.2614
842.76364	0.26264
842.93619	0.26207
843.10872	0.26428
843.28124	0.26405
843.45374	0.26365
843.62623	0.26344
843.79869	0.26274
843.97114	0.26266
844.14357	0.26581
844.31598	0.26609
844.48838	0.26521
844.66076	0.2647
844.83312	0.26561
845.00546	0.26635
845.17779	0.26545
845.3501	0.26506
845.52239	0.26589
845.69466	0.2666
845.86692	0.2669
846.03916	0.2674
846.21138	0.26477
846.38358	0.26812
846.55577	0.26611
846.72794	0.26737
846.90009	0.26947
847.07223	0.26833
847.24434	0.27025
847.41644	0.26864
847.58852	0.26843
847.76059	0.27356
847.93263	0.26869
848.10466	0.27145
848.27668	0.26901
848.44867	0.27109
848.62065	0.27197
848.79261	0.26926
848.96455	0.26879
849.13647	0.26986
849.30838	0.27226
849.48027	0.27164
849.65214	0.27341
849.824	0.27536
849.99583	0.27369
850.16765	0.27499
850.33946	0.27392
850.51124	0.27399
850.68301	0.2726
850.85476	0.27523
851.02649	0.27585
851.1982	0.27285
851.3699	0.27575
851.54158	0.27482
851.71324	0.27658
851.88489	0.27625
852.05651	0.27495
852.22812	0.27453
852.39971	0.27984
852.57129	0.27614
852.74285	0.2771
852.91438	0.2782
853.08591	0.27905
853.25741	0.27611
853.4289	0.27812
853.60037	0.27961
853.77182	0.27806
853.94325	0.27731
854.11467	0.27883
854.28607	0.27833
854.45745	0.27741
854.62881	0.27716
854.80016	0.27876
854.97149	0.28037
855.1428	0.27971
855.31409	0.27792
855.48537	0.2806
855.65662	0.28145
855.82786	0.28216
855.99909	0.28124
856.17029	0.28071
856.34148	0.2837
856.51265	0.28121
856.6838	0.28241
856.85494	0.28259
857.02606	0.28425
857.19716	0.28264
857.36824	0.28102
857.5393	0.28343
857.71035	0.28226
857.88138	0.28272
858.05239	0.28344
858.22338	0.2853
858.39436	0.2821
858.56532	0.28428
858.73626	0.284
858.90718	0.2834
859.07809	0.28575
859.24898	0.28595
859.41985	0.28526
859.5907	0.28446
859.76154	0.28518
859.93236	0.28718
860.10316	0.28545
860.27394	0.28691
860.4447	0.28458
860.61545	0.28616
860.78618	0.28768
860.95689	0.2868
861.12759	0.28668
861.29826	0.2891
861.46892	0.28672
861.63956	0.28853
861.81019	0.28921
861.98079	0.29003
862.15138	0.29124
862.32195	0.29196
862.4925	0.29104
862.66304	0.28663
862.83356	0.28799
863.00405	0.29072
863.17454	0.29043
863.345	0.29101
863.51545	0.29099
863.68588	0.29104
863.85629	0.29202
864.02668	0.29248
864.19706	0.29036
864.36742	0.2958
864.53776	0.29249
864.70808	0.29403
864.87838	0.29385
865.04867	0.29152
865.21894	0.29515
865.38919	0.29161
865.55943	0.2938
865.72964	0.29222
865.89984	0.294
866.07002	0.29435
866.24018	0.29659
866.41033	0.29553
866.58046	0.29343
866.75057	0.29535
866.92066	0.29457
867.09073	0.29556
867.26079	0.29673
867.43083	0.29661
867.60085	0.29522
867.77085	0.29562
867.94084	0.29503
868.11081	0.29523
868.28076	0.29783
868.45069	0.29492
868.6206	0.29845
868.7905	0.29741
868.96038	0.29766
869.13024	0.29889
869.30008	0.29722
869.46991	0.29645
869.63972	0.29975
869.80951	0.2978
869.97928	0.29623
870.14903	0.2996
870.31877	0.30132
870.48849	0.29911
870.65819	0.29958
870.82787	0.29712
870.99754	0.29854
871.16719	0.30099
871.33682	0.30092
871.50643	0.29672
871.67602	0.29974
871.8456	0.29895
872.01516	0.30122
872.1847	0.29933
872.35422	0.30004
872.52373	0.30077
872.69321	0.29963
872.86268	0.30246
873.03213	0.29974
873.20157	0.30281
873.37098	0.30068
873.54038	0.30346
873.70976	0.30403
873.87912	0.301
874.04847	0.30311
874.21779	0.305
874.3871	0.30369
874.55639	0.30008
874.72567	0.30371
874.89492	0.30456
875.06416	0.30226
875.23338	0.30645
875.40258	0.3061
875.57176	0.30395
875.74093	0.30419
875.91008	0.30547
876.07921	0.30505
876.24832	0.30832
876.41741	0.30712
876.58649	0.30977
876.75555	0.30789
876.92459	0.30693
877.09361	0.30593
877.26262	0.30845
877.4316	0.3044
877.60057	0.30492
877.76952	0.3063
877.93846	0.30487
878.10737	0.30515
878.27627	0.31254
878.44515	0.30902
878.61401	0.31078
878.78285	0.31055
878.95168	0.30766
879.12049	0.31063
879.28928	0.30724
879.45805	0.30927
879.6268	0.31025
879.79554	0.30945
879.96426	0.30752
880.13296	0.30888
880.30164	0.31002
880.4703	0.31116
880.63895	0.30742
880.80758	0.31052
880.97619	0.31206
881.14478	0.31077
881.31335	0.31107
881.48191	0.30988
881.65045	0.30788
881.81897	0.31169
881.98747	0.30793
882.15596	0.31034
882.32442	0.31237
882.49287	0.31411
882.6613	0.31162
882.82972	0.31059
882.99811	0.3108
883.16649	0.31283
883.33485	0.31459
883.50319	0.31223
883.67151	0.31127
883.83981	0.31399
884.0081	0.31431
884.17637	0.31392
884.34462	0.31648
884.51285	0.31341
884.68107	0.30924
884.84926	0.31767
885.01744	0.31309
885.1856	0.31493
885.35375	0.31516
885.52187	0.31474
885.68998	0.31106
885.85807	0.31558
886.02614	0.31914
886.19419	0.31862
886.36222	0.31775
886.53024	0.31487
886.69824	0.31747
886.86622	0.31683
887.03418	0.31512
887.20212	0.31459
887.37005	0.31302
887.53796	0.31235
887.70585	0.31528
887.87372	0.31844
888.04157	0.31699
888.20941	0.31989
888.37723	0.31561
888.54503	0.32099
888.71281	0.32053
888.88057	0.3176
889.04832	0.31813
889.21605	0.31754
889.38376	0.31634
